aX,aY,aZ,gX,gY,gZ
0.170,-3.941,-1.446,-1.775,0.066,-0.327
0.353,-4.355,-1.815,-1.671,0.104,-0.343
0.626,-4.979,-2.260,-1.321,0.230,-0.459
1.955,-4.096,-1.480,-1.197,0.066,-0.254
0.224,-5.113,-0.832,-1.233,1.320,0.130
-3.269,-5.503,-2.078,-0.890,-0.699,-0.027
2.203,-4.885,-2.140,-1.015,0.229,0.246
0.524,-6.795,-2.430,-0.741,0.405,0.630
-0.791,-5.837,-2.473,-0.460,-0.148,0.341
0.466,-6.087,-3.302,-0.513,0.053,0.130
-0.290,-6.082,-2.612,-0.384,0.415,0.192
-0.703,-6.152,-2.577,-0.650,0.380,0.349
-0.983,-7.219,-3.311,-0.184,0.205,0.117
-0.627,-6.331,-3.122,-0.138,0.054,0.063
-0.595,-6.281,-3.121,0.100,0.116,0.012
-0.693,-6.395,-2.732,-0.003,0.037,0.030
-0.696,-6.970,-2.711,0.008,0.103,-0.003
-0.678,-6.135,-2.174,0.145,0.096,0.075
-1.070,-6.489,-2.871,0.020,0.062,0.030
-0.765,-6.790,-3.432,0.331,0.080,-0.079
-0.022,-5.750,-2.464,0.159,-0.053,0.080
-0.940,-6.596,-2.774,0.258,0.144,0.066
-0.655,-5.878,-1.820,0.164,-0.136,0.075
-0.866,-5.753,-1.808,0.059,0.168,0.060
-1.063,-6.361,-2.315,0.040,0.382,0.048
-1.227,-5.124,-2.124,0.286,0.156,0.026
-1.059,-5.997,-2.344,-0.094,0.108,0.026
-0.966,-6.196,-2.709,0.197,0.148,-0.031
-0.707,-5.406,-2.203,0.289,-0.018,0.103
-1.267,-6.577,-3.370,0.498,0.041,0.090
-1.358,-6.045,-3.731,1.744,-0.339,-0.042
0.543,-2.516,-2.193,2.322,-1.065,0.435
-0.413,-3.994,-1.937,2.405,-0.317,0.615
-0.230,-0.754,-0.577,2.648,-0.072,0.193
-0.765,-1.267,0.953,1.280,-0.535,0.448
-0.114,-1.328,-0.612,1.465,-0.555,-0.031
0.502,0.351,1.451,1.026,0.300,0.078
-1.519,0.587,3.020,0.638,1.093,0.098
-4.089,0.528,1.052,-0.329,-0.711,-0.285
0.885,0.084,0.395,0.093,-0.043,-0.080
-0.660,-0.334,-1.132,0.063,0.285,-0.110
-1.322,0.490,-0.257,0.076,0.177,-0.064
-0.858,0.190,-0.202,-0.078,0.030,0.001
-1.077,0.368,0.369,0.079,0.167,0.010
-0.742,0.108,-0.104,0.066,0.026,0.013
-0.743,0.144,-0.153,0.006,0.127,0.001
-0.772,0.164,0.048,0.054,0.241,0.006
-1.093,0.244,-0.219,0.091,0.186,-0.008
-1.226,0.439,0.138,0.031,0.106,-0.005
-1.026,0.341,-0.212,0.027,0.035,-0.007
-1.010,0.427,0.158,0.016,0.002,0.013
-1.026,0.359,-0.129,-0.013,0.010,0.002
-1.144,0.499,-0.004,-0.060,-0.114,-0.013
-0.819,0.346,0.053,-0.016,-0.101,0.018
-0.898,0.468,-0.157,-0.002,0.018,-0.004
-0.882,0.391,-0.023,-0.047,-0.022,-0.002
-0.958,0.433,-0.079,-0.022,0.051,-0.015
-0.821,0.445,-0.056,-0.048,0.017,-0.015
-0.950,0.472,0.005,-0.051,0.046,-0.015
-0.876,0.435,-0.086,-0.030,0.035,-0.023
-0.989,0.480,-0.023,-0.051,0.038,-0.013
-0.870,0.400,-0.108,-0.045,0.038,-0.021
-0.953,0.533,0.045,-0.083,0.020,-0.012
-0.850,0.389,-0.068,0.007,0.066,-0.012
-0.990,0.566,-0.145,-0.062,0.022,-0.031
-0.881,0.352,0.079,-0.047,0.030,-0.001
-0.996,0.470,-0.220,-0.004,0.060,-0.026
-1.093,0.537,0.126,-0.105,-0.035,-0.016
-0.958,0.411,-0.023,0.010,0.050,-0.015
-1.057,0.591,-0.180,-0.042,0.015,-0.035
-0.875,0.387,0.067,-0.039,0.025,-0.001
-0.980,0.482,-0.186,-0.001,0.058,-0.020
-1.018,0.585,0.068,-0.076,-0.023,-0.017
-0.978,0.491,-0.180,-0.014,0.048,-0.005
-0.986,0.563,-0.207,-0.024,0.064,-0.033
-1.009,0.443,-0.044,-0.044,0.038,-0.010
-1.032,0.488,-0.174,-0.049,-0.007,-0.024
-0.941,0.457,0.071,-0.067,-0.002,-0.008
-0.927,0.482,-0.158,-0.018,0.038,-0.026
-1.018,0.540,0.069,-0.072,-0.002,-0.018
-0.967,0.490,-0.098,-0.011,0.050,-0.014
-1.045,0.626,0.002,-0.087,-0.000,-0.018
-0.924,0.460,0.042,-0.011,0.043,-0.007
-1.122,0.576,-0.239,-0.047,0.039,-0.028
-0.973,0.445,0.080,-0.076,-0.018,-0.006
-1.024,0.496,-0.129,0.004,0.080,-0.023
-1.081,0.640,-0.090,-0.073,-0.045,-0.025
-1.003,0.455,0.068,0.015,-0.103,-0.027
-1.233,0.587,-0.142,0.001,-0.022,-0.034
-0.883,0.480,0.093,-0.059,-0.005,-0.002
-0.962,0.564,-0.087,0.004,0.035,-0.020
-1.049,0.678,0.036,-0.059,0.012,-0.017
-0.891,0.557,-0.026,-0.033,0.048,-0.013
-0.905,0.617,-0.090,-0.048,0.018,-0.019
-0.819,0.511,0.054,-0.056,0.029,-0.007
-1.002,0.608,-0.174,-0.027,0.041,-0.019
-0.982,0.679,0.065,-0.096,-0.017,-0.007
-0.845,0.561,-0.007,-0.018,0.035,-0.011
-0.977,0.678,-0.095,-0.060,0.012,-0.025
-0.801,0.514,0.129,-0.054,0.034,-0.003
-0.977,0.583,-0.177,-0.006,0.070,-0.024
-1.068,0.697,0.032,-0.106,-0.021,-0.018
-0.844,0.492,-0.031,-0.002,0.051,-0.008
-1.074,0.640,-0.201,-0.061,-0.019,-0.029
-0.931,0.615,0.146,-0.039,-0.103,-0.015
-0.754,0.555,-0.018,-0.022,-0.002,-0.012
-0.903,0.692,-0.043,-0.082,-0.006,-0.021
-0.739,0.511,0.041,-0.031,0.057,-0.008
-0.882,0.633,-0.095,-0.041,0.034,-0.025
-0.800,0.542,-0.014,-0.060,0.030,-0.010
-0.911,0.549,-0.095,-0.012,0.051,-0.015
-0.986,0.696,0.030,-0.086,-0.002,-0.010
-0.806,0.590,-0.037,-0.025,0.037,-0.010
-0.912,0.669,-0.136,-0.058,0.026,-0.024
-0.815,0.539,0.087,-0.047,0.026,-0.004
-0.916,0.621,-0.164,-0.015,0.072,-0.023
-0.986,0.675,0.040,-0.095,-0.027,-0.019
-0.834,0.527,0.041,0.002,0.060,-0.002
-1.027,0.684,-0.244,-0.046,0.028,-0.025

1.692,-3.219,0.393,-1.646,-0.334,-0.223
1.871,-3.074,0.508,-1.656,-0.225,-0.205
1.827,-2.717,0.494,-1.697,0.070,-0.114
0.728,-2.874,0.211,-1.848,0.050,-0.008
0.639,-3.697,-1.680,-2.045,-0.022,-0.058
0.876,-5.112,-3.509,-1.316,-0.108,-0.156
1.067,-4.755,-2.931,-0.861,-0.104,-0.056
0.937,-5.309,-2.704,-0.798,0.132,0.010
0.913,-6.021,-2.849,-0.652,0.041,0.017
0.808,-5.720,-2.405,-0.624,0.272,0.089
0.178,-6.448,-2.796,-0.674,0.341,0.025
0.350,-6.170,-2.823,-0.517,0.104,-0.161
0.889,-6.746,-3.352,-0.488,0.072,-0.109
1.027,-7.190,-3.673,-0.162,-0.020,-0.139
1.172,-6.528,-3.260,-0.064,0.147,0.044
0.608,-6.990,-3.122,-0.124,0.079,0.048
0.600,-6.649,-3.227,0.053,0.018,-0.023
0.800,-6.511,-2.866,0.036,0.022,0.018
0.802,-6.791,-2.905,-0.046,0.110,0.040
0.529,-6.491,-2.913,0.088,0.066,0.002
1.000,-6.516,-2.831,-0.081,0.020,0.050
0.521,-6.917,-3.179,-0.013,0.117,0.042
0.875,-6.408,-2.696,0.072,-0.056,0.040
0.423,-6.722,-2.771,-0.018,0.137,0.060
0.496,-6.351,-2.860,0.126,0.054,0.034
0.448,-6.427,-2.508,-0.107,0.109,0.066
0.259,-6.766,-3.010,0.019,0.026,-0.018
0.408,-6.323,-2.640,0.009,0.104,0.021
0.377,-6.703,-2.956,-0.010,0.032,-0.047
0.672,-6.330,-2.672,0.180,0.088,0.017
0.219,-6.530,-2.460,-0.004,0.078,0.048
0.548,-6.574,-2.861,0.071,0.063,-0.016
0.242,-6.292,-2.656,0.160,0.089,0.067
0.286,-6.284,-2.834,0.238,0.097,0.034
0.306,-6.104,-2.734,0.303,0.091,0.097
0.371,-5.808,-2.631,0.373,0.060,0.124
0.272,-6.108,-3.021,0.496,0.220,0.155
0.146,-5.483,-2.602,0.715,0.111,0.135
0.123,-5.446,-2.381,0.600,0.102,0.160
0.113,-4.993,-2.053,0.782,0.210,0.163
-0.115,-4.916,-1.806,0.675,0.135,0.171
-0.043,-4.731,-1.927,0.790,0.073,0.108
-0.168,-4.090,-1.349,0.941,0.078,0.127
-0.287,-3.806,-0.815,0.932,0.207,0.063
-0.612,-3.172,-0.584,0.930,0.187,0.079
-0.866,-2.759,0.178,0.646,0.381,0.079
-1.920,-2.313,0.405,0.275,0.212,-0.140
-0.724,-3.524,-1.165,0.381,-0.209,-0.171
-0.138,-2.866,-0.939,0.917,0.350,0.108
-1.203,-2.807,-0.680,0.933,0.204,0.215
-1.263,-1.360,0.357,1.039,-0.223,0.017
0.535,-0.757,1.775,0.452,0.094,0.203
-3.012,-0.721,2.201,0.029,0.601,0.013
-1.131,-1.583,-0.491,-0.035,-0.258,-0.212
-0.102,-1.689,-0.960,0.323,0.224,0.005
-0.769,-0.968,-0.899,0.444,0.298,0.070
-2.960,-0.581,2.063,-0.346,0.040,-0.029
-0.801,-1.149,-0.239,0.031,0.207,-0.009
-0.973,-1.043,-0.163,-0.018,-0.173,-0.019
-0.821,-1.366,0.296,-0.031,-0.131,-0.030
-1.198,-0.457,-0.609,0.108,0.069,-0.064
-0.693,-1.281,0.026,-0.161,0.047,-0.027
-1.276,-0.784,-0.209,-0.030,-0.001,-0.001
-1.083,-0.813,-0.527,-0.253,-0.025,0.015
-0.936,-1.508,0.186,-0.135,0.072,0.034
-1.276,-1.094,-0.266,0.010,-0.034,0.009
-0.798,-1.199,-0.036,-0.143,-0.026,0.005
-0.939,-1.173,-0.183,0.020,0.050,-0.023
-1.125,-1.028,-0.153,-0.094,0.005,-0.018
-0.976,-1.147,-0.201,-0.012,0.068,-0.019
-1.244,-1.126,-0.054,-0.060,0.002,0.003
-0.871,-1.149,-0.254,-0.031,-0.002,0.014
-1.125,-1.111,-0.119,-0.038,0.000,0.014
-0.788,-1.166,-0.291,-0.020,0.034,0.010
-1.194,-1.142,-0.136,-0.031,0.038,0.003
-0.958,-1.213,-0.122,-0.001,0.042,0.029
-0.986,-1.033,-0.186,-0.014,0.034,-0.004
-1.064,-1.024,-0.206,-0.057,0.124,-0.014
-1.262,-1.118,-0.111,-0.011,0.062,-0.019
-1.043,-1.052,-0.187,-0.031,0.019,-0.015
-1.182,-1.043,-0.212,0.012,0.031,-0.004
-1.116,-0.927,-0.153,-0.081,0.001,-0.011
-1.167,-1.086,-0.129,0.047,0.064,-0.002
-1.332,-0.810,-0.256,-0.032,0.016,-0.020
-1.004,-1.180,-0.022,-0.085,0.015,0.001
-1.070,-0.968,-0.268,0.033,0.050,-0.019
-1.146,-0.903,-0.145,-0.115,-0.023,-0.021
-1.067,-1.043,-0.102,0.003,0.077,-0.025
-1.020,-0.922,-0.286,-0.025,0.115,-0.036
-1.367,-0.978,-0.077,0.006,0.072,-0.028
-1.280,-0.905,-0.174,0.004,0.013,-0.020
-1.225,-0.888,-0.177,-0.082,-0.007,-0.008
-1.100,-0.971,-0.192,-0.010,0.014,-0.016
-1.234,-0.770,-0.080,-0.107,-0.060,-0.034
-1.094,-1.034,-0.115,-0.045,-0.010,-0.020
-1.177,-0.871,-0.085,-0.055,-0.034,-0.020
-1.113,-0.988,-0.117,-0.021,0.027,-0.010
-1.198,-0.814,-0.165,-0.023,0.009,-0.021
-1.030,-1.080,-0.014,-0.039,-0.005,-0.006
-1.085,-0.840,-0.265,0.023,0.030,-0.015
-1.069,-0.923,-0.029,-0.094,-0.033,-0.002
-1.045,-0.921,-0.196,0.025,0.038,-0.013
-1.143,-0.754,-0.117,-0.072,-0.001,-0.018
-1.065,-0.907,-0.062,-0.016,0.043,-0.008
-1.105,-0.761,-0.214,-0.045,0.002,-0.027
-1.140,-0.964,0.010,-0.068,0.027,-0.007
-1.092,-0.818,-0.248,0.008,0.049,-0.017
-1.050,-0.852,-0.057,-0.092,0.011,-0.005
-1.115,-0.855,-0.141,0.014,0.050,-0.013
-1.142,-0.741,-0.122,-0.093,-0.033,-0.014
-1.083,-0.946,-0.086,-0.002,0.042,-0.008
-1.130,-0.699,-0.241,-0.041,0.010,-0.021
-1.094,-0.927,-0.043,-0.088,0.005,-0.004
-1.071,-0.822,-0.215,0.024,0.052,-0.011
-1.043,-0.731,-0.103,-0.114,-0.010,-0.019
-1.106,-0.887,-0.117,0.005,0.067,-0.014
-1.035,-0.723,-0.168,-0.045,0.056,-0.029
-1.174,-0.866,-0.065,-0.041,0.037,-0.015
-1.056,-0.775,-0.165,-0.043,0.029,-0.018

0.472,-3.438,-1.498,-1.935,0.006,-0.066
0.517,-3.614,-1.614,-1.922,0.040,-0.059
0.597,-3.979,-1.888,-1.874,0.160,-0.033
0.566,-5.031,-2.284,-1.659,0.207,0.029
0.614,-5.898,-3.217,-1.188,0.091,0.043
0.558,-5.816,-3.270,-0.406,0.106,0.180
-0.448,-5.108,-1.859,-0.509,0.223,0.062
0.006,-6.092,-3.041,-0.678,-0.256,-0.254
1.098,-5.669,-2.841,-0.511,-0.187,-0.234
0.943,-6.645,-3.245,-0.623,-0.088,-0.252
1.533,-6.287,-3.273,-0.176,-0.068,-0.072
0.955,-6.728,-2.799,-0.541,0.183,0.117
0.415,-7.412,-3.607,-0.123,0.098,0.072
0.487,-5.839,-1.905,-0.208,0.095,0.082
0.077,-7.189,-3.201,-0.412,0.156,0.006
0.196,-6.825,-3.162,-0.095,0.034,0.014
0.494,-6.748,-2.963,-0.207,0.166,0.048
0.107,-7.235,-3.286,-0.122,0.251,0.030
0.262,-6.642,-3.057,-0.043,0.092,-0.016
0.226,-6.989,-3.355,-0.092,0.158,0.004
0.268,-6.727,-3.347,0.113,0.021,0.001
0.279,-6.748,-3.008,-0.035,0.057,0.038
0.277,-6.862,-3.203,0.048,0.031,-0.008
0.395,-6.543,-2.702,-0.022,0.077,0.058
0.049,-7.081,-3.095,-0.071,0.011,-0.014
0.359,-6.455,-2.909,0.078,0.047,0.020
-0.135,-7.193,-3.141,-0.075,0.110,0.033
0.362,-6.780,-3.220,0.134,0.012,0.005
0.043,-6.712,-2.977,0.006,0.121,0.062
0.012,-6.619,-2.940,0.052,0.143,-0.026
0.077,-6.668,-2.735,-0.001,0.085,0.014
-0.037,-6.719,-2.800,0.052,0.061,0.018
-0.186,-6.607,-2.666,0.047,0.115,0.039
0.045,-6.761,-3.069,0.072,0.099,0.004
-0.127,-6.549,-2.965,0.192,0.108,0.037
0.005,-6.278,-2.811,0.181,0.143,0.071
-0.400,-6.604,-3.227,0.348,0.068,0.047
0.116,-5.745,-2.624,0.503,0.151,0.140
-0.327,-6.025,-2.492,0.363,0.410,0.158
-0.620,-5.810,-2.349,0.316,0.258,0.112
-0.576,-5.654,-2.212,0.327,0.193,0.088
-0.733,-5.533,-1.850,0.122,0.162,0.064
-0.633,-5.802,-2.389,0.205,0.032,0.034
-0.909,-5.618,-1.909,0.388,0.190,0.097
-0.915,-5.223,-1.437,0.246,0.063,0.106
-0.731,-5.259,-1.828,0.288,0.100,0.172
-1.349,-5.253,-2.039,0.329,0.208,0.151
-1.094,-4.931,-2.181,0.404,-0.049,0.099
-0.755,-4.745,-1.863,0.462,0.177,0.164
-1.362,-4.458,-1.482,0.451,0.068,0.147
-0.994,-4.417,-1.578,0.520,0.089,0.161
-1.453,-4.108,-1.227,0.609,0.175,0.191
-1.343,-4.081,-0.915,0.558,0.031,0.191
-1.325,-3.700,-0.862,0.668,0.133,0.159
-1.530,-3.371,-0.512,0.638,0.151,0.151
-1.748,-3.689,-1.009,0.879,0.111,0.031
-1.854,-2.030,-0.014,0.926,-0.192,0.047
-1.551,-2.145,0.018,0.516,0.021,0.073
-1.850,-1.866,-0.426,0.503,0.164,0.003
-1.794,-2.084,-0.490,0.328,0.013,0.066
-1.877,-2.034,-0.541,0.391,0.295,-0.010
-1.628,-1.464,-0.132,0.306,-0.068,0.010
-1.543,-1.472,-0.286,0.222,0.055,0.014
-1.493,-1.207,0.198,0.132,-0.017,0.028
-2.218,-1.669,0.338,-0.034,0.332,0.031
-1.946,-1.373,-0.063,-0.019,0.124,0.001
-1.793,-1.395,-0.523,0.035,0.119,-0.013
-1.839,-1.444,0.024,-0.030,0.079,0.006
-2.094,-1.301,-0.401,-0.076,-0.006,-0.017
-1.920,-1.528,-0.397,0.000,-0.093,-0.014
-2.008,-1.403,-0.397,-0.019,-0.029,-0.027
-1.772,-1.352,-0.261,0.036,-0.041,-0.018
-1.781,-1.367,-0.261,-0.051,-0.033,-0.021
-1.890,-1.466,-0.249,-0.004,-0.045,-0.030
-1.634,-1.296,-0.291,-0.048,-0.021,-0.021
-1.745,-1.302,-0.353,-0.069,-0.030,-0.020
-1.687,-1.353,-0.244,-0.018,0.010,-0.009
-1.726,-1.293,-0.310,-0.075,-0.030,-0.016
-1.749,-1.366,-0.300,-0.038,0.014,0.000
-1.654,-1.259,-0.358,-0.027,0.008,-0.018
-1.727,-1.322,-0.277,-0.062,0.002,-0.006
-1.587,-1.447,-0.259,-0.015,0.004,-0.009
-1.756,-1.284,-0.351,-0.058,0.013,-0.015
-1.660,-1.323,-0.195,-0.026,0.033,-0.015
-1.682,-1.245,-0.454,-0.056,0.011,-0.018
-1.675,-1.397,-0.206,-0.038,0.017,-0.013
-1.666,-1.226,-0.447,-0.025,0.005,-0.014
-1.528,-1.296,-0.289,-0.054,-0.002,-0.016
-1.690,-1.350,-0.296,-0.040,0.015,-0.019
-1.603,-1.246,-0.320,-0.043,0.020,-0.017
-1.793,-1.273,-0.296,-0.040,0.027,-0.014
-1.644,-1.198,-0.358,-0.033,0.017,-0.017
-1.650,-1.305,-0.247,-0.053,0.022,-0.019
-1.702,-1.226,-0.344,-0.040,0.004,-0.017
-1.621,-1.274,-0.299,-0.034,-0.006,-0.014
-1.641,-1.190,-0.338,-0.046,0.003,-0.011
-1.586,-1.323,-0.329,-0.066,0.015,-0.022
-1.759,-1.252,-0.170,-0.046,0.020,-0.015
-1.532,-1.292,-0.340,-0.038,0.028,-0.019
-1.609,-1.228,-0.293,-0.062,0.025,-0.015
-1.671,-1.305,-0.260,-0.039,0.051,-0.011
-1.658,-1.258,-0.292,-0.045,0.033,-0.012
-1.650,-1.317,-0.229,-0.018,0.016,-0.020
-1.683,-1.221,-0.435,-0.033,-0.001,-0.036
-1.684,-1.292,-0.280,-0.052,0.008,-0.018
-1.686,-1.235,-0.251,-0.055,-0.009,-0.016
-1.627,-1.237,-0.309,-0.067,0.039,-0.011
-1.572,-1.316,-0.231,-0.069,-0.007,-0.017
-1.634,-1.313,-0.260,-0.055,0.006,-0.013
-1.617,-1.241,-0.338,-0.006,0.034,-0.021
-1.610,-1.195,-0.303,-0.079,-0.016,-0.017
-1.759,-1.241,-0.211,0.006,0.032,-0.013
-1.548,-1.202,-0.399,-0.053,0.015,-0.018
-1.653,-1.319,-0.170,-0.050,0.004,-0.011
-1.557,-1.240,-0.314,-0.026,0.021,-0.013
-1.577,-1.182,-0.302,-0.075,-0.013,-0.014
-1.638,-1.234,-0.242,-0.034,0.018,-0.015
-1.547,-1.229,-0.296,-0.072,-0.001,-0.014
-1.559,-1.352,-0.218,-0.035,0.047,-0.013

0.717,-3.266,-1.459,-0.715,-0.859,-0.175
1.077,-3.290,-1.539,-0.699,-0.723,-0.148
0.979,-3.316,-1.099,-0.741,-0.092,-0.132
-0.472,-3.654,-1.210,-1.224,-0.620,-0.332
1.537,-3.909,-1.905,-1.232,-0.690,-0.236
1.203,-4.502,-1.302,-1.433,-0.152,-0.245
1.957,-4.070,-1.008,-2.119,0.263,-0.164
1.211,-6.906,-3.941,-1.948,0.423,-0.028
1.949,-6.701,-3.901,-1.216,0.569,0.131
0.389,-7.708,-4.618,-1.142,0.494,0.018
1.385,-7.417,-4.533,-0.593,0.156,-0.002
0.948,-8.015,-4.937,-0.449,0.255,0.041
1.490,-7.338,-4.799,0.077,-0.101,-0.069
0.921,-7.174,-3.689,-0.157,0.326,0.143
0.676,-7.921,-4.612,0.142,0.112,-0.022
1.346,-6.905,-3.470,-0.037,0.090,0.080
0.462,-8.036,-4.338,0.047,0.074,0.020
0.915,-6.631,-3.160,0.127,-0.055,0.112
0.079,-7.737,-3.747,-0.097,0.035,0.025
0.990,-6.743,-3.703,0.111,0.023,0.073
0.051,-7.465,-3.522,-0.122,0.118,0.044
0.573,-7.633,-3.964,0.114,0.063,-0.019
0.448,-7.275,-3.004,-0.074,0.106,0.046
0.437,-7.855,-4.055,-0.033,0.066,0.010
0.409,-6.784,-3.144,0.103,0.124,0.055
0.261,-7.642,-3.650,-0.107,0.078,-0.002
0.435,-6.979,-3.405,0.104,0.096,0.057
0.146,-7.216,-3.427,-0.089,0.107,0.024
0.274,-7.414,-3.889,0.084,0.098,-0.007
0.289,-6.993,-3.097,-0.036,0.036,0.024
0.171,-7.561,-3.734,-0.045,-0.006,-0.040
0.305,-6.843,-2.994,0.119,0.015,0.059
0.067,-7.302,-3.194,-0.131,0.028,-0.026
0.205,-7.323,-3.579,0.057,0.114,0.018
0.177,-7.118,-3.166,-0.105,0.011,-0.026
0.464,-7.450,-3.843,-0.036,0.088,0.008
0.101,-6.662,-3.292,0.048,0.105,0.040
0.079,-7.294,-3.674,-0.104,0.020,-0.028
0.281,-7.203,-3.469,0.184,0.119,0.021
0.035,-7.174,-3.087,-0.047,0.031,0.022
0.341,-7.238,-3.534,0.089,0.013,-0.006
-0.050,-6.977,-2.848,0.024,0.071,0.056
0.136,-7.056,-3.303,-0.035,-0.015,-0.033
0.208,-7.196,-3.833,0.198,0.131,0.031
0.154,-6.519,-3.109,0.064,0.114,0.075
0.338,-7.240,-4.494,0.233,0.029,0.068
0.329,-6.361,-4.028,0.682,0.341,0.226
-0.084,-6.185,-3.677,0.729,0.373,0.313
0.024,-6.302,-3.966,0.982,0.290,0.245
-0.627,-4.325,-2.310,1.011,0.396,0.385
-0.959,-5.679,-2.573,0.697,-0.147,0.171
0.134,-5.009,-2.665,1.406,0.274,0.334
-1.016,-4.638,-1.199,1.252,0.541,0.573
-1.887,-4.025,-1.386,1.670,0.416,0.464
-1.008,-3.122,-0.517,1.433,0.201,0.359
-3.589,-1.575,1.772,0.695,0.444,0.401
-1.759,-3.207,0.067,0.288,-0.508,-0.028
-2.216,-2.130,0.764,-0.138,0.292,0.077
-1.994,-3.521,-1.131,-0.006,0.054,0.022
-2.109,-2.377,-0.549,0.359,0.316,0.129
-2.210,-2.909,-1.019,0.387,-0.052,0.060
-1.963,-1.450,0.095,0.304,0.435,0.194
-2.065,-2.510,-1.154,0.366,-0.151,0.070
-1.912,-1.887,-0.375,0.411,0.179,0.141
-3.824,-1.847,1.482,-0.091,-0.007,0.038
-1.162,-2.264,0.248,0.089,0.061,-0.023
-1.856,-1.408,-0.760,0.062,-0.009,-0.039
-1.517,-2.047,-0.359,0.033,-0.156,0.003
-2.368,-1.447,-0.648,-0.012,-0.018,0.017
-1.872,-2.194,-0.430,-0.150,-0.135,-0.013
-1.926,-1.699,-0.315,0.011,-0.083,-0.017
-1.480,-1.877,-0.660,0.035,0.069,-0.070
-1.654,-1.711,-0.362,-0.195,-0.067,-0.071
-1.542,-1.894,-0.509,-0.083,0.004,-0.045
-2.218,-1.646,-0.350,-0.090,0.037,-0.036
-1.800,-2.155,-0.692,-0.043,-0.050,-0.023
-1.962,-1.680,-0.297,-0.018,0.049,0.008
-1.829,-1.844,-0.321,-0.040,0.003,-0.022
-1.553,-1.854,-0.430,0.056,-0.011,-0.006
-1.681,-1.861,-0.314,-0.072,-0.090,-0.031
-1.668,-1.853,-0.354,0.002,0.058,-0.010
-1.671,-1.638,-0.633,0.078,-0.026,-0.055
-1.757,-1.882,-0.352,-0.100,0.001,0.007
-1.669,-1.835,-0.387,0.029,0.048,-0.000
-1.769,-1.703,-0.289,0.006,-0.032,-0.001
-1.519,-1.887,-0.472,0.157,0.054,-0.004
-2.124,-1.239,-0.475,0.041,-0.019,0.008
-1.592,-1.705,-0.254,-0.002,-0.020,0.026
-1.671,-1.332,-0.606,0.007,0.109,-0.036
-1.589,-1.695,-0.213,-0.078,0.025,0.023
-1.559,-1.500,-0.364,0.112,0.145,0.044
-1.733,-1.338,-0.382,0.006,0.026,-0.050
-1.586,-1.695,-0.269,-0.022,0.088,-0.005
-1.911,-1.386,-0.429,-0.072,-0.004,-0.011
-1.675,-1.566,-0.219,-0.049,0.023,-0.006
-2.018,-1.310,-0.411,0.068,0.034,-0.007
-1.616,-1.525,-0.256,0.029,0.039,0.015
-1.784,-1.235,-0.379,0.087,0.093,0.006
-1.903,-1.225,-0.347,-0.084,0.026,0.004
-1.782,-1.446,-0.244,0.107,0.125,0.018
-2.310,-0.984,-0.567,0.062,0.118,0.009
-1.688,-1.398,-0.116,-0.089,0.023,0.015
-1.832,-1.100,-0.362,0.046,0.090,0.001
-1.968,-1.117,-0.377,-0.045,-0.032,0.001
-1.835,-1.192,-0.303,0.023,0.043,0.006
-2.130,-1.045,-0.421,0.003,-0.012,0.013
-1.680,-1.239,-0.394,-0.060,-0.015,0.017
-1.852,-1.158,-0.315,-0.012,0.099,0.010
-2.114,-1.031,-0.341,-0.015,0.055,-0.005
-1.856,-1.131,-0.310,0.000,0.013,-0.012
-2.237,-0.995,-0.283,-0.071,-0.022,-0.015
-1.860,-1.105,-0.327,-0.004,0.039,-0.009
-2.156,-0.924,-0.341,-0.076,0.013,-0.011
-1.882,-1.167,-0.223,-0.015,0.025,0.008
-2.024,-0.960,-0.407,-0.049,0.012,-0.015
-1.972,-1.120,-0.170,-0.087,-0.005,-0.011
-1.907,-1.004,-0.451,0.003,0.027,-0.019
-2.055,-0.953,-0.290,-0.082,-0.105,-0.003
-1.751,-1.132,-0.217,0.083,-0.015,0.024

-2.083,0.026,3.296,-0.784,-0.219,-0.056
-2.234,-0.014,3.424,-0.962,-0.276,-0.058
-2.405,-0.672,3.055,-1.508,-0.552,-0.104
-0.476,-2.257,0.134,-1.802,-0.654,-0.305
-0.754,-3.152,-0.214,-1.564,-0.136,-0.211
0.061,-3.603,-0.917,-1.268,-0.329,-0.362
0.007,-3.442,-1.232,-1.122,-0.142,-0.192
-0.237,-4.275,-2.084,-0.861,-0.138,-0.069
-0.412,-3.577,-1.419,-0.720,-0.157,0.001
-0.427,-4.688,-1.939,-0.792,-0.193,-0.094
-0.032,-3.946,-1.379,-0.651,-0.274,-0.089
-0.214,-5.199,-1.863,-1.132,-0.044,-0.075
0.208,-5.149,-2.328,-0.931,-0.224,-0.020
0.573,-5.411,-2.418,-1.234,0.096,0.050
-0.029,-6.537,-3.531,-1.086,0.607,-0.013
-0.256,-6.329,-3.445,-0.970,0.322,-0.051
0.050,-7.460,-4.117,-0.678,0.201,-0.138
0.101,-7.168,-3.607,-0.203,0.203,-0.049
0.020,-7.603,-3.705,-0.387,0.199,-0.094
0.108,-7.567,-4.080,-0.021,-0.014,-0.017
-0.092,-6.847,-3.140,-0.052,0.215,0.047
-0.359,-7.154,-3.862,0.031,0.017,-0.022
0.256,-6.367,-3.090,0.024,0.146,0.092
-0.650,-7.440,-3.722,-0.036,0.071,0.010
-0.101,-6.859,-3.102,0.219,-0.044,0.018
-0.274,-7.331,-2.935,-0.163,0.166,0.066
-0.807,-7.300,-3.488,0.150,0.105,0.075
-0.363,-6.808,-2.751,-0.080,0.143,0.036
-0.609,-7.447,-3.643,-0.047,0.056,-0.064
-0.262,-6.494,-2.976,0.028,0.027,0.006
-0.479,-7.083,-3.346,-0.124,0.035,-0.026
-0.429,-6.814,-3.255,0.086,0.038,0.019
-0.451,-7.173,-3.102,-0.130,0.086,0.035
-0.619,-7.260,-3.637,0.064,0.093,0.055
-0.281,-6.525,-2.728,-0.020,0.011,0.037
-0.754,-7.263,-3.316,-0.106,0.055,0.025
-0.655,-6.560,-2.999,0.006,0.022,0.034
-0.700,-7.318,-3.311,-0.114,0.042,-0.004
-0.479,-6.929,-3.348,0.061,0.078,0.062
-0.903,-6.885,-2.968,-0.086,0.053,0.031
-0.657,-7.087,-3.440,-0.030,0.032,-0.020
-0.776,-6.710,-2.951,0.001,0.037,0.016
-0.560,-7.061,-3.298,-0.083,0.001,-0.013
-0.888,-6.762,-3.036,0.057,0.055,0.046
-0.698,-6.870,-3.184,-0.079,0.005,-0.010
-0.589,-7.122,-3.445,0.048,0.073,0.014
-0.657,-6.746,-2.830,-0.086,0.034,0.021
-0.848,-7.236,-3.466,-0.018,-0.015,-0.012
-0.674,-6.591,-2.836,0.010,0.068,0.037
-0.978,-7.040,-3.316,-0.089,0.010,-0.031
-0.795,-6.797,-3.236,0.054,0.027,0.009
-0.772,-6.686,-3.086,-0.085,0.023,-0.019
-0.837,-6.950,-3.682,0.099,0.054,0.020
-0.547,-6.393,-2.807,0.089,-0.011,0.021
-1.007,-6.924,-3.089,0.035,0.013,-0.006
-0.846,-6.491,-2.653,0.059,0.052,0.035
-0.871,-6.999,-3.004,-0.060,0.015,-0.029
-0.704,-6.826,-3.200,0.121,0.056,0.035
-0.899,-6.512,-2.707,-0.020,0.067,0.033
-0.827,-6.752,-3.207,0.060,0.110,0.019
-0.892,-6.495,-3.060,0.086,0.044,0.023
-0.830,-6.578,-3.339,0.169,0.122,0.040
-0.866,-6.293,-3.084,0.377,0.017,0.039
-1.022,-6.410,-2.807,0.223,0.073,0.088
-1.249,-5.863,-1.943,0.282,0.034,0.051
-1.465,-6.069,-1.641,-0.054,-0.003,-0.011
-0.895,-6.321,-2.643,-0.060,0.048,-0.032
-0.990,-6.285,-2.957,0.197,0.188,0.088
-1.192,-6.181,-3.031,0.345,0.123,0.065
-0.487,-6.214,-3.412,0.623,0.220,0.164
-0.758,-4.830,-2.179,0.988,0.625,0.406
-2.215,-5.367,-1.903,0.660,0.232,0.292
-1.641,-4.797,-1.750,0.778,0.064,0.183
-2.009,-4.460,-1.083,0.573,0.296,0.273
-2.099,-5.079,-2.089,0.713,0.041,0.092
-1.368,-3.172,-1.415,1.070,0.266,0.360
-2.326,-3.940,-1.274,0.872,0.166,0.313
-2.642,-2.622,-0.548,0.805,0.059,0.252
-2.138,-3.069,-0.684,0.516,-0.042,0.172
-2.607,-2.089,0.055,0.410,0.155,0.198
-2.585,-2.632,-0.602,0.067,-0.006,0.106
-2.529,-2.693,-0.921,0.333,-0.043,0.098
-2.120,-2.501,-0.639,0.223,0.105,0.176
-3.012,-2.241,-0.529,0.242,-0.046,0.087
-2.224,-2.073,-0.290,0.199,0.034,0.085
-2.951,-1.961,-0.279,0.147,0.009,0.099
-2.394,-2.294,-1.052,0.379,0.081,0.070
-2.883,-1.279,-0.360,0.374,0.044,0.012
-2.083,-1.926,-0.822,0.345,0.272,0.034
-3.905,-0.494,1.834,0.281,0.107,0.062
-2.516,-2.162,-1.205,-0.126,-0.031,-0.098
-2.389,-1.045,-0.083,0.274,-0.104,0.002
-2.691,-1.371,-0.728,0.047,-0.012,-0.002
-2.265,-0.875,-0.464,0.084,-0.191,-0.068
-2.415,-1.416,-0.781,-0.049,-0.144,-0.023
-2.480,-1.203,0.103,-0.006,-0.131,-0.008
-2.467,-1.292,-0.437,-0.065,-0.068,-0.035
-2.310,-1.094,-0.535,-0.110,-0.091,-0.029
-2.143,-1.425,-0.255,-0.058,0.069,-0.007
-2.342,-1.079,-0.712,-0.115,-0.028,-0.016
-2.034,-1.565,-0.280,-0.061,-0.006,-0.004
-2.543,-1.269,-0.289,-0.014,-0.074,-0.039
-1.976,-1.314,-0.551,-0.089,-0.047,-0.023
-2.209,-1.472,-0.250,0.004,-0.002,-0.021
-2.174,-1.041,-0.497,-0.032,0.011,-0.012
-2.088,-1.314,-0.443,-0.006,0.044,-0.004
-2.146,-1.299,-0.384,-0.061,-0.005,-0.011
-1.993,-1.287,-0.397,-0.083,0.000,-0.018
-2.309,-1.245,-0.354,-0.116,0.003,-0.021
-2.106,-1.464,-0.315,-0.042,0.043,-0.002
-2.192,-1.215,-0.500,-0.055,0.009,-0.016
-1.950,-1.431,-0.385,-0.039,0.042,-0.010
-2.300,-1.191,-0.357,-0.013,0.034,-0.011
-2.061,-1.286,-0.482,-0.026,0.032,-0.013
-2.175,-1.188,-0.442,-0.072,0.017,-0.013
-2.100,-1.344,-0.396,-0.056,0.032,-0.007
-2.221,-1.226,-0.335,-0.059,0.024,-0.011
-2.069,-1.371,-0.347,-0.068,0.005,-0.015
-2.207,-1.270,-0.445,-0.054,0.017,-0.017

-3.011,-1.194,1.126,-0.356,0.066,-0.273
-3.104,-0.950,1.300,-0.442,-0.067,-0.290
-2.824,-0.961,1.634,-0.742,-0.476,-0.369
-0.670,-2.265,0.640,-1.315,-0.568,-0.406
-0.997,-2.813,-0.175,-1.170,-0.469,-0.272
-0.831,-3.151,-0.807,-1.177,-0.309,-0.297
-0.625,-3.588,-1.624,-0.960,-0.199,-0.322
-0.479,-3.899,-1.494,-0.861,-0.091,-0.249
-0.498,-4.251,-1.554,-0.784,-0.098,-0.232
-0.362,-4.190,-1.267,-0.762,-0.126,-0.071
-0.168,-5.085,-1.529,-0.813,-0.151,-0.070
-0.237,-4.671,-1.452,-0.729,0.084,0.074
-0.885,-5.297,-1.775,-0.963,0.163,0.014
-0.560,-5.827,-2.647,-0.804,0.013,-0.138
-0.312,-6.060,-2.612,-0.686,0.084,-0.099
-0.376,-6.160,-2.836,-0.520,-0.064,-0.124
-0.109,-5.901,-2.461,-0.638,0.011,-0.108
-0.481,-6.500,-3.202,-0.636,-0.024,-0.117
-0.085,-6.412,-3.067,-0.566,0.011,-0.069
-0.047,-7.096,-3.547,-0.592,0.037,-0.143
-0.177,-6.886,-3.504,-0.359,-0.111,-0.030
0.065,-6.998,-3.108,-0.491,0.036,-0.007
-0.712,-7.453,-3.707,-0.342,0.069,-0.079
0.583,-7.292,-3.557,-0.431,0.060,-0.015
-0.652,-7.967,-4.083,-0.151,0.122,-0.039
0.208,-7.066,-3.539,-0.211,0.046,0.002
-0.354,-7.870,-4.074,-0.201,0.144,0.012
-0.078,-7.043,-3.891,0.030,-0.091,-0.014
0.075,-7.582,-3.982,-0.274,0.076,-0.031
-0.564,-7.676,-4.148,0.075,0.031,0.052
0.237,-7.274,-3.457,-0.160,-0.013,-0.002
-0.401,-8.149,-4.350,0.012,0.116,0.060
0.001,-6.851,-3.320,0.120,0.051,0.105
-0.702,-7.678,-3.619,-0.153,0.220,0.032
-0.362,-7.453,-3.736,0.024,0.033,0.030
-0.650,-7.378,-3.425,-0.114,0.023,0.017
-0.466,-7.737,-3.974,-0.007,0.087,0.020
-0.227,-7.035,-3.370,-0.051,-0.008,0.046
-0.467,-7.761,-4.174,-0.112,0.087,0.047
-0.758,-7.128,-3.688,0.125,0.047,0.041
-0.690,-7.351,-3.603,-0.113,0.049,0.009
-0.565,-7.446,-3.887,0.041,0.080,0.025
-0.608,-7.046,-3.468,-0.077,0.059,0.001
-0.413,-7.763,-4.100,-0.052,0.024,-0.023
-0.480,-7.156,-3.626,0.030,0.053,0.058
-0.863,-7.667,-3.851,-0.040,0.065,-0.006
-0.429,-7.095,-3.481,0.075,0.044,0.018
-0.794,-7.621,-3.716,-0.111,-0.010,-0.024
-0.316,-7.320,-3.930,0.072,0.100,0.064
-0.832,-7.286,-3.504,-0.010,0.055,0.030
-0.630,-7.362,-3.859,-0.035,0.001,-0.027
-0.613,-7.110,-3.579,0.064,0.074,0.037
-0.868,-7.337,-3.734,0.010,0.030,-0.019
-0.630,-6.913,-3.414,0.137,0.051,0.029
-0.813,-7.156,-3.559,-0.019,0.045,0.022
-0.822,-7.190,-3.739,0.126,0.072,0.044
-0.564,-6.857,-3.300,0.170,0.151,0.086
-0.976,-7.268,-3.524,0.050,0.028,0.049
-1.022,-6.845,-3.278,0.191,0.042,0.040
-0.972,-6.876,-2.927,0.017,0.009,0.026
-0.895,-7.163,-3.433,0.025,-0.028,-0.014
-0.651,-6.727,-2.941,0.062,0.050,0.066
-1.228,-7.116,-3.408,-0.003,0.029,0.012
-0.812,-6.548,-3.011,0.066,-0.044,0.030
-1.174,-6.849,-3.127,0.001,0.070,0.036
-1.008,-6.633,-3.015,0.048,-0.046,-0.004
-1.176,-6.634,-3.023,-0.046,0.059,0.023
-1.003,-6.831,-3.403,0.049,0.083,0.019
-0.844,-6.540,-3.190,0.147,0.055,0.043
-1.076,-6.906,-3.692,0.138,0.098,0.058
-0.858,-6.473,-3.444,0.351,0.092,0.068
-0.976,-5.896,-2.931,0.473,0.132,0.124
-1.106,-6.493,-2.910,0.236,0.031,0.115
-1.179,-6.316,-3.209,0.565,0.153,0.200
-1.211,-5.895,-2.799,0.733,0.160,0.259
-1.876,-5.917,-2.612,1.083,0.286,0.343
-1.470,-4.299,-1.725,1.306,0.030,0.259
-2.355,-5.225,-1.426,0.968,0.210,0.284
-2.017,-4.239,-1.443,1.277,-0.226,-0.055
-1.243,-3.782,-0.565,0.679,-0.126,0.185
-1.707,-4.298,-1.856,0.917,0.161,0.071
-2.172,-1.945,-0.084,0.739,-0.185,0.059
-1.249,-3.063,-0.555,0.623,0.234,0.108
-2.495,-2.071,0.087,0.468,0.120,0.132
-1.808,-2.704,-0.413,0.230,-0.107,0.082
-2.233,-2.102,-0.132,0.226,0.214,0.111
-2.040,-2.507,-0.391,0.067,-0.103,0.064
-2.199,-2.454,-0.676,0.219,0.225,0.061
-1.930,-2.269,-0.617,0.250,-0.068,0.072
-2.280,-2.054,-0.257,0.134,0.252,0.038
-1.720,-1.876,-0.962,0.226,0.080,0.030
-3.051,-1.638,1.137,-0.135,-0.173,-0.025
-1.891,-2.145,-0.840,-0.092,-0.008,-0.122
-1.683,-2.076,-0.432,0.184,-0.136,-0.045
-1.472,-2.133,-0.545,0.132,-0.019,-0.034
-1.988,-1.627,-0.289,0.133,0.113,-0.046
-1.931,-1.519,-0.904,-0.057,0.107,-0.006
-2.330,-1.494,-0.678,-0.078,0.403,0.070
-2.125,-2.003,-0.102,-0.258,-0.226,-0.018
-1.866,-1.757,-0.462,-0.022,0.101,-0.013
-2.427,-1.707,-0.381,-0.081,-0.108,-0.018
-1.512,-1.991,-0.845,-0.072,0.072,-0.013
-2.389,-1.677,-0.455,-0.165,-0.074,-0.018
-2.030,-2.107,-0.342,-0.066,0.058,0.005
-2.283,-1.778,-0.523,-0.055,0.032,0.002
-1.508,-1.999,-0.537,-0.086,-0.035,-0.001
-2.043,-1.848,-0.182,0.023,0.168,0.014
-2.178,-1.797,-0.652,-0.006,0.071,-0.011
-2.425,-1.768,-0.509,-0.037,0.107,0.008
-2.015,-2.035,-0.411,-0.041,-0.015,-0.023
-2.031,-1.647,-0.570,0.026,0.143,0.021
-2.059,-1.817,-0.535,-0.069,-0.074,-0.038
-1.958,-1.875,-0.668,-0.109,0.102,-0.007
-2.247,-1.945,-0.324,0.023,-0.019,-0.011
-1.838,-1.794,-0.591,0.050,0.091,0.002
-2.820,-1.539,-0.668,-0.049,0.026,-0.011
-2.021,-1.875,-0.588,-0.060,0.050,-0.016
-2.328,-1.765,-0.448,-0.049,0.032,-0.010
-2.077,-1.782,-0.594,-0.023,0.067,-0.005

-0.766,-3.077,-1.372,-0.679,0.416,0.092
-0.721,-3.304,-1.592,-0.702,0.397,0.096
-0.785,-3.280,-1.636,-0.798,0.410,0.058
-1.354,-4.044,-2.555,-1.140,0.249,-0.080
-1.454,-3.979,-2.518,-0.755,0.160,-0.059
-1.320,-4.399,-1.689,-1.077,-0.054,-0.247
-1.104,-4.975,-1.792,-0.801,0.256,-0.178
-1.396,-4.982,-1.122,-0.965,0.131,-0.084
-1.611,-5.758,-1.617,-1.021,0.343,-0.095
-1.202,-6.200,-2.649,-1.048,0.202,-0.065
-1.603,-6.859,-3.340,-0.640,0.402,0.123
-2.113,-6.061,-2.672,-0.445,0.224,0.061
-2.332,-6.794,-3.768,-0.400,0.247,0.013
-1.836,-5.721,-2.717,-0.153,0.001,-0.096
-1.645,-6.359,-3.142,-0.648,0.303,-0.100
-2.213,-7.337,-3.739,-0.215,0.181,-0.131
-1.070,-6.384,-2.786,-0.493,0.165,-0.100
-1.985,-8.034,-4.353,-0.391,0.047,-0.064
-1.292,-6.261,-3.522,0.302,-0.007,0.148
-2.118,-6.871,-3.467,-0.148,0.207,0.097
-1.553,-6.820,-3.772,-0.098,-0.067,-0.060
-2.075,-7.136,-3.713,-0.266,0.070,0.014
-2.011,-7.214,-4.049,0.013,-0.026,-0.029
-1.757,-6.652,-3.390,-0.099,0.077,0.030
-1.927,-7.410,-3.954,-0.086,0.106,-0.002
-1.598,-6.634,-3.211,0.020,0.007,0.039
-2.058,-6.961,-3.479,-0.252,0.116,0.051
-2.188,-7.444,-4.063,0.057,0.030,0.086
-1.887,-6.527,-3.302,-0.078,0.099,0.083
-2.203,-7.296,-4.380,-0.076,0.052,0.007
-1.974,-6.758,-3.664,0.244,-0.002,0.045
-2.410,-7.047,-3.575,-0.058,0.147,0.011
-1.911,-7.051,-3.651,0.151,0.063,0.004
-2.290,-6.513,-2.975,-0.186,0.075,0.048
-2.476,-7.562,-4.123,-0.013,0.084,0.003
-2.127,-6.257,-3.359,0.206,0.062,0.054
-2.605,-6.891,-3.719,-0.016,0.085,0.017
-2.116,-6.970,-3.543,0.153,-0.056,-0.022
-2.236,-6.692,-3.066,-0.008,0.095,0.029
-2.084,-7.049,-3.457,0.034,0.019,-0.023
-2.346,-6.244,-3.263,0.030,0.053,0.073
-2.400,-6.870,-3.790,0.026,0.003,0.007
-2.229,-6.509,-3.658,0.198,-0.025,0.072
-2.513,-6.195,-3.138,0.042,0.134,0.037
-2.091,-6.743,-3.700,0.126,-0.014,-0.033
-2.398,-6.402,-3.123,0.240,0.058,0.033
-2.304,-6.414,-3.296,0.104,0.034,0.026
-2.425,-6.886,-3.801,0.404,0.003,0.033
-2.331,-5.491,-2.613,0.346,-0.052,0.043
-2.502,-6.558,-3.509,0.482,-0.004,0.052
-2.647,-5.064,-2.158,0.772,-0.154,0.003
-2.133,-5.559,-2.375,0.447,0.173,0.102
-2.812,-5.604,-2.586,0.668,0.019,0.093
-2.357,-4.286,-1.551,0.707,0.078,0.123
-2.665,-5.391,-2.255,0.465,-0.096,0.130
-2.429,-4.161,-2.102,1.088,0.151,0.234
-2.772,-3.354,-0.709,0.628,-0.281,0.278
-2.602,-4.448,-1.542,0.378,-0.414,0.301
-2.039,-3.992,-1.166,0.575,-0.010,0.266
-2.782,-3.509,-1.160,0.467,-0.115,0.167
-1.841,-3.383,-1.525,0.586,-0.007,0.194
-3.244,-2.946,-0.791,0.455,0.077,0.131
-2.354,-2.693,-0.813,0.524,-0.053,0.133
-3.172,-2.374,-0.509,0.368,-0.099,0.123
-2.844,-2.415,-0.498,0.091,-0.099,-0.058
-2.576,-2.580,-1.099,0.302,-0.059,-0.019
-2.090,-1.890,-0.815,0.604,-0.046,0.156
-3.026,-1.894,-0.652,0.438,0.058,0.031
-1.420,-1.664,-0.834,0.526,-0.143,0.075
-3.048,-1.379,0.300,0.198,0.142,0.105
-1.921,-1.933,-0.839,0.337,-0.214,0.081
-2.588,-0.889,-0.081,0.486,0.264,0.252
-4.286,0.035,1.312,-0.254,-0.464,-0.165
-2.777,-1.355,0.484,0.009,0.402,0.011
-1.946,-0.814,-0.980,0.158,0.015,0.037
-2.644,-0.698,-0.891,-0.019,-0.182,0.043
-2.412,-1.325,-0.057,0.019,-0.130,-0.015
-2.102,-0.796,-0.900,-0.002,0.138,0.002
-2.437,-0.897,-0.511,-0.189,-0.002,-0.023
-2.267,-1.135,-0.333,-0.160,0.032,-0.018
-2.294,-1.235,-0.344,-0.024,0.128,0.007
-2.648,-0.921,-0.527,0.003,0.094,0.005
-2.709,-0.894,-0.572,-0.057,-0.003,-0.012
-2.179,-1.192,-0.425,-0.070,-0.022,-0.016
-2.580,-0.966,-0.484,-0.054,0.074,-0.003
-2.336,-1.215,-0.397,-0.025,0.028,-0.002
-2.399,-0.990,-0.472,0.044,0.107,0.001
-2.711,-0.856,-0.533,-0.066,0.022,-0.019
-2.407,-1.091,-0.421,-0.050,-0.019,-0.019
-2.497,-0.955,-0.383,-0.042,0.055,-0.004
-2.614,-0.930,-0.569,-0.051,0.027,-0.017
-2.444,-1.035,-0.400,-0.074,0.002,-0.022
-2.539,-0.984,-0.529,-0.071,0.049,-0.015
-2.558,-0.978,-0.565,-0.079,-0.037,-0.027
-2.491,-1.155,-0.316,-0.092,-0.018,-0.016
-2.585,-1.057,-0.488,0.013,0.059,-0.010
-2.466,-1.008,-0.448,-0.036,0.020,-0.006
-2.503,-1.041,-0.534,-0.048,0.057,-0.012
-2.482,-0.986,-0.460,-0.039,-0.020,-0.019
-2.496,-1.049,-0.460,-0.048,0.039,-0.013
-2.525,-1.014,-0.473,-0.033,-0.006,-0.018
-2.476,-1.014,-0.302,-0.063,0.002,-0.011
-2.513,-1.056,-0.488,-0.040,0.052,-0.014
-2.472,-0.954,-0.543,-0.035,-0.017,-0.019
-2.470,-1.098,-0.365,-0.083,0.012,-0.015
-2.533,-0.988,-0.546,-0.030,0.016,-0.018
-2.265,-0.997,-0.364,-0.085,0.045,-0.008
-2.455,-1.051,-0.455,-0.086,0.009,-0.020
-2.282,-1.035,-0.463,-0.012,0.009,-0.009
-2.526,-0.978,-0.481,-0.068,0.025,-0.014
-2.473,-1.098,-0.457,-0.025,-0.008,-0.019
-2.422,-0.958,-0.429,-0.048,0.005,-0.009
-2.604,-0.985,-0.482,-0.041,0.019,-0.015
-2.423,-0.995,-0.569,-0.003,-0.038,-0.019
-2.520,-1.050,-0.455,-0.062,0.046,-0.011
-2.450,-1.076,-0.457,-0.023,0.026,-0.014
-2.371,-0.946,-0.397,-0.033,0.015,-0.007
-2.484,-0.965,-0.512,-0.068,0.032,-0.018
-2.419,-0.991,-0.479,-0.028,-0.021,-0.022

0.139,-3.847,-1.111,-0.651,0.116,-0.146
0.072,-3.858,-0.960,-0.633,0.122,-0.145
-0.300,-3.865,-0.868,-0.594,0.119,-0.148
0.448,-3.741,-1.142,-0.308,0.422,0.065
-0.583,-4.225,-0.832,-0.714,0.147,-0.060
-0.022,-4.925,-1.611,-0.584,0.293,-0.135
-0.419,-4.099,-0.839,-0.612,0.094,-0.029
-0.681,-4.878,-1.350,-0.652,0.037,-0.039
-0.093,-4.644,-1.186,-0.612,0.010,-0.033
-0.601,-5.304,-1.472,-0.875,0.244,0.076
-0.686,-5.838,-1.860,-0.469,0.183,0.007
-0.792,-5.168,-1.227,-0.783,0.300,-0.091
-0.581,-6.161,-2.462,-0.820,0.147,-0.119
-0.430,-5.726,-2.181,-0.796,0.254,0.065
-0.824,-6.456,-3.097,-0.848,0.241,0.116
-1.034,-6.316,-2.850,-0.616,0.210,0.060
-0.997,-6.730,-3.340,-0.829,0.140,0.001
-0.761,-7.234,-3.767,-0.629,0.264,0.059
-0.939,-6.999,-4.039,-0.641,0.155,0.046
-1.079,-7.248,-4.080,-0.468,0.295,0.098
-1.246,-7.234,-4.111,-0.302,0.183,0.003
-0.778,-7.573,-4.847,-0.199,0.075,0.030
-1.249,-7.347,-4.047,0.088,0.044,0.127
-1.387,-7.281,-3.893,-0.187,0.225,0.087
-1.409,-7.922,-4.426,0.104,-0.012,0.020
-1.123,-6.902,-3.396,-0.054,0.162,0.123
-2.005,-8.082,-4.252,-0.104,0.035,0.020
-1.062,-6.606,-3.457,0.130,0.056,0.061
-1.861,-7.568,-4.140,-0.242,0.183,0.063
-1.809,-7.802,-4.477,0.208,-0.035,0.021
-1.159,-6.583,-3.262,-0.038,0.183,0.095
-2.242,-7.913,-4.433,-0.068,0.121,-0.034
-1.669,-6.445,-3.305,0.172,0.035,-0.028
-2.023,-7.459,-4.065,-0.160,0.090,-0.007
-1.390,-7.442,-4.260,0.201,-0.059,-0.017
-1.459,-7.011,-3.812,0.057,0.199,0.073
-1.767,-7.682,-3.784,0.334,-0.053,0.054
-2.116,-6.493,-2.388,0.083,0.203,0.143
-2.295,-7.284,-3.393,-0.148,0.040,-0.071
-1.784,-6.511,-3.400,-0.075,0.067,0.028
-1.908,-7.275,-4.137,-0.154,0.041,-0.054
-1.360,-6.779,-3.858,0.138,-0.014,0.020
-2.168,-6.978,-3.354,-0.039,0.006,-0.009
-1.830,-7.268,-3.873,0.062,0.003,-0.010
-1.493,-6.499,-3.614,0.104,0.113,0.022
-2.100,-7.292,-4.137,0.078,0.045,-0.009
-1.623,-6.682,-3.713,0.406,0.068,0.019
-2.069,-6.964,-3.541,0.180,0.068,0.053
-1.786,-7.167,-4.193,0.556,-0.044,0.005
-1.682,-6.025,-3.036,0.569,-0.007,0.155
-1.923,-7.010,-4.083,0.906,-0.053,0.071
-1.878,-4.853,-1.999,1.153,-0.008,0.220
-2.274,-5.300,-2.134,0.842,-0.033,0.103
-1.846,-5.078,-2.094,0.927,-0.194,0.002
-2.126,-4.299,-0.733,0.556,0.075,0.189
-2.740,-4.902,-1.312,0.263,-0.131,-0.004
-1.495,-4.281,-1.391,0.654,-0.010,0.103
-2.710,-4.237,-1.342,0.495,0.258,0.141
-1.981,-3.670,-1.338,0.632,-0.055,0.074
-2.102,-3.921,-1.261,0.552,0.252,0.144
-2.950,-3.660,-1.105,0.490,-0.205,0.004
-0.968,-3.176,-0.802,0.497,0.137,0.111
-2.726,-3.481,-0.946,0.448,-0.014,0.150
-1.672,-2.559,-0.773,0.709,0.326,0.222
-3.069,-2.465,-0.323,0.281,-0.097,0.172
-1.859,-2.632,-1.150,0.477,0.195,0.169
-3.031,-1.955,-0.348,0.401,0.153,0.210
-2.641,-2.265,-0.949,0.376,0.017,0.131
-2.892,-1.878,-0.411,0.344,-0.153,0.050
-2.252,-1.609,-0.346,0.256,0.128,0.056
-2.591,-1.665,-0.411,0.183,-0.158,0.063
-2.289,-1.639,-0.430,0.165,0.162,0.048
-2.570,-1.415,-0.557,0.165,-0.149,0.062
-2.260,-1.150,-0.227,0.161,0.195,0.074
-2.936,-1.306,-0.370,-0.068,-0.170,0.024
-2.338,-1.160,-0.413,0.132,0.136,0.095
-3.217,-1.055,-0.060,-0.101,-0.060,0.010
-2.170,-1.532,-1.197,0.037,-0.052,-0.014
-2.605,-0.802,0.101,0.078,0.135,0.065
-2.231,-1.287,-0.401,-0.130,-0.182,-0.050
-2.594,-1.256,-0.299,0.022,0.099,0.009
-2.401,-1.116,-0.621,0.069,0.033,0.007
-2.535,-1.106,-0.661,-0.052,0.049,0.010
-2.574,-1.028,-0.463,-0.039,-0.030,0.000
-2.257,-1.237,-0.303,-0.034,0.077,-0.007
-2.477,-0.882,-0.442,0.030,0.161,0.011
-2.630,-1.086,-0.516,-0.036,0.034,-0.015
-2.494,-1.136,-0.424,0.045,0.116,0.015
-2.635,-0.915,-0.417,0.110,0.222,0.027
-2.925,-0.781,-0.565,-0.017,0.067,-0.001
-2.586,-0.937,-0.548,-0.093,-0.014,-0.023
-2.789,-0.904,-0.384,-0.076,-0.003,-0.018
-2.623,-1.033,-0.493,-0.007,0.038,-0.010
-2.720,-0.833,-0.547,-0.038,0.056,-0.013
-2.672,-0.967,-0.536,-0.078,-0.019,-0.019
-2.656,-0.949,-0.479,-0.041,-0.006,-0.016
-2.747,-0.929,-0.455,-0.089,-0.010,-0.017
-2.612,-0.943,-0.522,-0.052,-0.011,-0.015
-2.570,-0.979,-0.508,-0.036,0.043,-0.007
-2.632,-0.901,-0.619,-0.071,-0.005,-0.021
-2.649,-0.980,-0.406,-0.052,-0.003,-0.003
-2.473,-1.000,-0.455,-0.008,0.009,-0.001
-2.692,-0.792,-0.551,-0.035,0.024,-0.012
-2.674,-0.887,-0.504,-0.106,-0.002,-0.019
-2.591,-1.055,-0.467,-0.064,0.035,-0.013
-2.549,-0.922,-0.491,-0.055,0.033,-0.009
-2.617,-1.012,-0.570,-0.073,0.025,-0.019
-2.648,-0.961,-0.475,-0.053,0.025,-0.018
-2.648,-1.002,-0.479,-0.079,0.015,-0.019
-2.599,-1.001,-0.497,-0.060,0.009,-0.022
-2.644,-0.939,-0.473,-0.055,0.006,-0.010
-2.568,-1.049,-0.518,-0.035,0.061,-0.010
-2.778,-0.905,-0.522,-0.066,0.017,-0.014
-2.534,-1.110,-0.492,-0.037,0.023,-0.008
-2.642,-0.958,-0.571,-0.016,0.035,-0.010
-2.635,-0.941,-0.497,-0.088,0.001,-0.014
-2.605,-1.135,-0.439,-0.030,0.024,-0.010
-2.658,-0.894,-0.558,-0.033,0.022,-0.014
-2.664,-1.019,-0.450,-0.085,-0.007,-0.015

-3.942,0.712,0.751,-0.917,-1.365,-0.112
-3.618,0.862,1.373,-1.145,-1.723,-0.088
-2.717,-0.158,1.440,-1.703,-2.211,-0.039
-0.208,-0.388,2.228,-3.337,-1.834,0.137
0.232,-3.937,-0.109,-3.706,0.445,-0.152
-1.120,-4.963,-2.298,-2.525,1.030,-0.043
-2.157,-5.454,-2.957,-2.307,0.848,-0.248
-1.264,-6.273,-5.092,-1.318,-0.272,-0.548
0.475,-7.270,-4.888,-0.959,0.693,-0.006
-1.592,-7.726,-5.201,-0.052,0.419,-0.064
0.224,-6.537,-3.648,-0.047,0.304,0.085
-1.844,-7.780,-4.246,0.154,0.357,0.015
-0.692,-5.912,-2.362,0.218,-0.251,0.136
-2.699,-6.985,-2.942,-0.151,0.301,0.046
-1.751,-6.588,-3.481,0.186,-0.006,-0.066
-1.288,-6.531,-3.195,-0.038,0.343,0.083
-1.942,-6.855,-3.349,0.219,0.097,0.002
-1.628,-6.341,-2.401,-0.057,0.173,0.062
-2.120,-6.979,-3.458,0.004,0.002,-0.062
-1.137,-6.099,-2.739,-0.049,0.039,0.040
-2.225,-7.075,-3.669,-0.017,0.109,-0.030
-1.246,-5.764,-2.819,0.234,-0.065,-0.011
-2.143,-6.497,-2.877,-0.155,0.151,0.053
-1.721,-6.847,-3.334,0.161,0.058,-0.040
-1.805,-6.161,-2.288,-0.074,0.151,0.075
-2.296,-6.839,-3.121,-0.041,0.120,-0.036
-1.756,-5.941,-2.545,-0.071,0.048,0.025
-2.176,-6.713,-3.384,-0.137,0.063,-0.041
-1.633,-6.007,-2.994,0.107,0.036,0.022
-2.187,-6.481,-3.041,-0.092,0.047,-0.000
-1.809,-6.536,-2.948,0.120,0.086,0.011
-2.225,-6.431,-2.607,-0.128,0.078,0.032
-1.957,-6.716,-3.311,0.017,0.074,-0.015
-2.130,-5.972,-2.634,-0.046,0.107,0.057
-2.145,-6.600,-3.344,-0.050,-0.018,-0.039
-1.844,-6.121,-2.929,0.114,0.043,0.028
-2.260,-6.366,-2.806,-0.088,0.088,0.005
-2.172,-6.468,-3.047,0.071,0.096,-0.027
-1.970,-5.965,-2.585,-0.001,0.069,0.033
-2.292,-6.426,-2.999,-0.043,0.027,-0.032
-1.975,-6.081,-2.879,-0.035,0.050,-0.013
-2.276,-6.468,-3.090,-0.028,-0.005,-0.016
-2.006,-5.880,-2.585,0.069,-0.044,0.008
-2.223,-6.416,-2.923,-0.037,0.043,0.003
-2.236,-6.195,-2.867,0.060,0.032,-0.022
-2.150,-6.057,-2.690,-0.112,0.051,0.009
-2.047,-6.433,-3.175,0.046,0.072,-0.014
-2.094,-6.485,-3.735,0.318,0.044,0.032
-2.071,-5.895,-3.687,0.760,-0.151,0.065
-2.113,-6.613,-4.251,1.252,-0.192,0.165
-0.770,-1.929,-1.335,1.968,-0.187,0.425
-3.849,-4.548,-0.794,0.424,0.195,0.266
-1.896,-6.336,-3.321,1.149,-0.746,-0.205
-0.551,-1.765,-0.972,1.967,0.588,0.479
-4.035,-2.016,-0.652,1.713,0.366,0.406
-2.336,-2.252,-1.438,1.701,-0.822,-0.021
-0.147,-1.322,-1.093,1.832,0.357,0.448
-10.277,4.934,10.744,0.444,0.503,0.052
1.736,-2.046,-1.791,0.185,-0.461,-0.020
-3.524,-0.144,-0.636,0.425,0.257,0.040
-2.655,-0.289,-0.779,0.055,-0.228,0.022
-1.743,-0.231,-0.614,-0.140,0.039,-0.020
-2.632,-0.266,-0.019,-0.055,-0.108,-0.029
-2.099,-0.356,-0.396,-0.016,0.114,-0.012
-2.608,-0.214,-0.356,-0.087,0.065,-0.020
-2.143,-0.390,-0.280,-0.092,-0.105,-0.029
-2.394,-0.364,-0.236,-0.074,0.090,-0.020
-2.132,-0.391,-0.382,-0.039,-0.040,-0.032
-2.409,-0.296,-0.333,-0.064,0.057,-0.012
-2.156,-0.389,-0.328,-0.089,-0.020,-0.028
-2.345,-0.342,-0.320,-0.071,0.050,-0.017
-2.182,-0.381,-0.214,-0.062,0.001,-0.019
-2.206,-0.350,-0.421,-0.022,0.035,-0.015
-2.513,-0.390,-0.247,-0.077,-0.037,-0.012
-2.110,-0.419,-0.400,-0.017,-0.013,-0.020
-2.337,-0.362,-0.257,-0.076,0.060,-0.006
-2.164,-0.417,-0.408,-0.067,-0.003,-0.022
-2.258,-0.388,-0.304,-0.075,0.069,-0.012
-2.247,-0.493,-0.241,-0.107,-0.024,-0.027
-2.357,-0.350,-0.412,-0.030,0.161,-0.015
-2.291,-0.426,-0.348,-0.072,-0.025,-0.015
-2.259,-0.487,-0.332,-0.062,-0.017,-0.016
-2.215,-0.460,-0.279,-0.013,-0.004,-0.013
-2.318,-0.357,-0.502,-0.079,0.028,-0.015
-2.233,-0.545,-0.188,-0.079,-0.034,-0.012
-2.289,-0.389,-0.368,-0.019,0.050,-0.012
-2.266,-0.408,-0.377,-0.067,-0.013,-0.018
-2.205,-0.545,-0.291,-0.056,0.010,-0.011
-2.176,-0.455,-0.368,-0.043,0.041,-0.012
-2.261,-0.456,-0.327,-0.062,-0.011,-0.018
-2.278,-0.500,-0.309,-0.050,0.023,-0.012
-2.234,-0.439,-0.402,-0.023,0.025,-0.015
-2.289,-0.414,-0.348,-0.075,0.007,-0.011
-2.321,-0.460,-0.302,-0.054,-0.010,-0.018
-2.105,-0.437,-0.378,-0.016,0.024,-0.014
-2.333,-0.395,-0.394,-0.072,-0.002,-0.015
-2.145,-0.529,-0.287,-0.025,0.002,-0.017
-2.221,-0.433,-0.314,-0.042,0.059,-0.005
-2.248,-0.436,-0.311,-0.058,0.020,-0.017
-2.156,-0.417,-0.309,-0.026,0.004,-0.014
-2.224,-0.478,-0.341,-0.061,0.033,-0.013
-2.261,-0.439,-0.377,-0.040,-0.001,-0.019
-2.139,-0.389,-0.220,-0.058,0.015,-0.011
-2.185,-0.424,-0.369,-0.065,0.023,-0.015
-2.230,-0.412,-0.350,-0.039,-0.019,-0.018
-2.181,-0.460,-0.329,-0.060,0.035,-0.010
-2.175,-0.454,-0.364,-0.038,0.002,-0.019
-2.131,-0.407,-0.257,-0.049,-0.006,-0.017
-2.119,-0.450,-0.354,-0.058,0.023,-0.012
-2.138,-0.431,-0.316,-0.037,0.023,-0.019
-2.145,-0.498,-0.298,-0.051,0.023,-0.008
-2.229,-0.426,-0.387,-0.040,0.034,-0.016
-2.131,-0.407,-0.346,-0.041,-0.017,-0.015
-2.125,-0.456,-0.326,-0.050,0.036,-0.012
-2.231,-0.397,-0.363,-0.042,0.005,-0.021
-2.119,-0.397,-0.208,-0.050,-0.001,-0.011
-2.187,-0.423,-0.326,-0.046,0.044,-0.012
-2.212,-0.359,-0.346,-0.032,-0.008,-0.017
-2.178,-0.409,-0.241,-0.069,0.020,-0.006

-3.828,0.915,0.887,-0.744,-1.516,0.019
-3.940,0.731,0.991,-0.934,-1.826,0.005
-3.211,0.030,0.669,-1.262,-2.338,-0.089
1.227,-1.476,1.598,-1.953,-1.009,-0.282
-0.083,-1.085,2.442,-2.669,0.152,-0.158
0.323,-3.179,0.470,-3.111,0.608,-0.252
-0.229,-4.774,-1.452,-2.291,0.974,-0.167
-0.393,-5.306,-2.846,-1.659,1.052,-0.052
-1.457,-5.177,-3.267,-1.406,0.669,-0.165
-0.758,-5.727,-3.935,-1.146,0.331,-0.103
-0.693,-6.422,-3.821,-0.784,0.635,0.080
-1.590,-7.228,-4.254,-0.657,0.426,-0.027
-1.518,-6.898,-3.998,-0.366,0.144,-0.088
-1.324,-6.626,-3.995,-0.270,0.237,-0.027
-1.477,-7.420,-4.432,-0.009,0.071,-0.032
-1.379,-6.640,-3.509,0.112,0.028,0.009
-1.866,-6.953,-3.365,0.069,0.116,0.054
-1.778,-6.545,-2.707,0.208,-0.034,-0.033
-1.816,-7.077,-3.251,-0.228,0.081,-0.029
-1.701,-6.912,-3.563,0.189,-0.012,0.006
-1.604,-6.116,-2.477,-0.221,0.094,0.017
-2.194,-7.646,-3.929,-0.097,0.021,-0.060
-1.160,-5.982,-2.818,-0.000,-0.020,-0.016
-2.057,-7.111,-3.636,-0.157,0.086,-0.010
-1.493,-6.747,-3.269,0.169,-0.021,-0.026
-1.480,-6.706,-3.156,-0.114,0.067,0.043
-1.762,-7.086,-3.594,0.119,0.029,0.038
-1.597,-6.389,-2.774,-0.020,0.054,0.048
-2.082,-6.912,-3.433,-0.059,0.039,0.004
-1.640,-6.297,-2.953,0.054,0.055,0.017
-2.023,-6.832,-3.170,-0.142,0.053,0.019
-1.820,-6.965,-3.443,0.108,0.017,-0.018
-1.535,-6.179,-2.772,-0.011,-0.005,0.047
-1.999,-6.904,-3.431,-0.051,0.056,0.002
-1.799,-6.452,-3.073,0.050,0.049,0.037
-1.888,-6.607,-3.126,-0.062,0.039,0.036
-1.979,-6.738,-3.241,0.062,0.023,0.019
-1.902,-6.395,-2.877,-0.031,0.047,0.033
-1.969,-6.685,-3.164,0.008,0.016,0.024
-1.897,-6.394,-2.869,0.016,0.011,0.029
-2.012,-6.615,-3.135,-0.059,0.057,-0.019
-1.917,-6.476,-3.157,0.049,0.030,0.003
-1.986,-6.486,-2.999,-0.092,0.036,-0.001
-1.788,-6.691,-3.278,0.030,0.018,-0.018
-1.939,-6.324,-2.954,-0.041,0.062,0.025
-2.093,-6.499,-3.183,-0.012,0.026,-0.020
-1.878,-6.229,-3.049,0.110,0.034,0.006
-2.107,-6.516,-3.017,-0.055,0.055,0.001
-1.951,-6.584,-2.865,0.043,-0.018,-0.002
-2.059,-6.325,-2.719,0.006,0.031,0.027
-2.310,-6.353,-2.792,-0.098,0.010,-0.035
-1.828,-6.329,-3.256,-0.001,0.028,-0.026
-1.799,-6.292,-3.193,-0.017,0.036,-0.010
-1.682,-6.703,-4.104,0.249,0.106,0.015
-1.712,-6.322,-3.979,0.579,-0.002,0.057
-1.654,-5.857,-3.598,1.185,0.104,0.195
-1.433,-6.043,-3.335,1.694,-0.022,0.295
-1.638,-5.179,-2.222,1.725,0.513,0.681
-3.877,-2.282,-0.012,1.622,-0.359,0.476
-2.155,-3.396,-0.918,0.804,-0.549,0.127
-2.546,-3.420,-1.296,1.083,-0.286,0.126
-2.180,-2.508,-0.077,0.691,-0.395,0.238
-2.601,-2.732,-1.091,0.788,0.302,0.006
-1.156,-1.341,-1.307,1.405,-0.164,0.061
-1.751,-1.954,-1.465,0.856,-0.104,0.489
-2.506,-1.905,-1.443,2.060,-0.031,0.319
2.198,-3.567,-2.446,-0.219,-0.477,0.134
-3.794,-0.122,0.214,0.349,0.384,0.063
-2.442,0.035,-0.482,0.173,0.232,0.008
-2.046,-0.448,-0.900,-0.085,-0.058,-0.005
-2.318,-0.585,-0.080,-0.131,-0.122,-0.013
-2.197,-0.650,-0.277,-0.079,0.047,-0.013
-1.952,-0.504,-0.443,-0.053,-0.045,-0.022
-2.326,-0.552,-0.273,-0.117,-0.020,-0.011
-2.185,-0.650,-0.260,-0.068,-0.015,-0.019
-2.100,-0.522,-0.487,-0.054,0.041,-0.012
-2.022,-0.614,-0.381,-0.132,-0.023,-0.011
-1.974,-0.700,-0.156,-0.053,-0.009,-0.008
-2.127,-0.617,-0.360,-0.057,0.036,-0.014
-2.095,-0.606,-0.419,-0.065,-0.012,-0.019
-2.097,-0.670,-0.403,-0.109,-0.025,-0.011
-2.047,-0.705,-0.219,-0.055,-0.035,-0.021
-2.060,-0.611,-0.419,-0.019,0.004,-0.022
-2.073,-0.651,-0.196,-0.075,-0.025,-0.009
-2.008,-0.712,-0.300,-0.017,0.031,-0.025
-2.148,-0.540,-0.368,-0.080,0.013,-0.011
-1.914,-0.769,-0.305,-0.048,0.017,-0.018
-2.143,-0.646,-0.225,-0.060,0.009,-0.011
-2.060,-0.687,-0.385,-0.052,0.031,-0.018
-2.156,-0.674,-0.133,-0.051,0.057,-0.014
-1.975,-0.685,-0.287,-0.052,0.039,-0.012
-2.112,-0.680,-0.373,-0.053,-0.007,-0.026
-2.058,-0.673,-0.265,-0.070,0.011,-0.017
-2.137,-0.690,-0.318,-0.057,0.017,-0.016
-1.933,-0.686,-0.181,-0.049,-0.016,-0.014
-2.052,-0.692,-0.381,-0.044,0.031,-0.013
-1.973,-0.723,-0.220,-0.059,0.013,-0.010
-1.982,-0.712,-0.377,-0.035,0.049,-0.016
-2.015,-0.703,-0.333,-0.058,0.012,-0.015
-2.002,-0.739,-0.297,-0.042,0.028,-0.012
-2.058,-0.666,-0.332,-0.037,0.030,-0.020
-1.993,-0.674,-0.327,-0.061,-0.017,-0.013
-2.022,-0.703,-0.299,-0.055,-0.005,-0.017
-1.985,-0.681,-0.304,-0.040,-0.014,-0.013
-1.948,-0.743,-0.300,-0.054,0.039,-0.013
-2.061,-0.676,-0.268,-0.051,-0.028,-0.017
-2.023,-0.719,-0.303,-0.043,0.039,-0.011
-2.011,-0.646,-0.321,-0.056,0.012,-0.017
-1.966,-0.674,-0.257,-0.057,0.013,-0.007
-1.930,-0.686,-0.329,-0.032,0.028,-0.017
-1.954,-0.640,-0.255,-0.070,-0.016,-0.017
-1.907,-0.746,-0.235,-0.051,0.027,-0.013
-2.016,-0.651,-0.373,-0.033,0.005,-0.021
-2.041,-0.709,-0.277,-0.075,-0.003,-0.012
-1.954,-0.772,-0.273,-0.038,0.024,-0.017
-2.002,-0.617,-0.283,-0.044,0.012,-0.015
-1.919,-0.697,-0.291,-0.070,0.007,-0.013
-1.917,-0.727,-0.266,-0.022,0.030,-0.016
-1.936,-0.652,-0.287,-0.062,0.005,-0.012

